Subject	Trial	Code		Time	Resp	RT

evnka101_1passive	1	standard	4307	-1	-1
evnka101_1passive	2	standard	5414	-1	-1
evnka101_1passive	3	standard	6545	-1	-1
evnka101_1passive	4	standard	7688	-1	-1
evnka101_1passive	5	standard	8928	-1	-1
evnka101_1passive	6	standard	10184	-1	-1
evnka101_1passive	7	standard	11377	-1	-1
evnka101_1passive	8	deviant	12500	-1	-1
evnka101_1passive	9	standard	13679	-1	-1
evnka101_1passive	10	standard	14876	-1	-1
evnka101_1passive	11	deviant	15970	-1	-1
evnka101_1passive	12	standard	17174	-1	-1
evnka101_1passive	13	standard	18328	-1	-1
evnka101_1passive	14	standard	19428	-1	-1
evnka101_1passive	15	standard	20509	-1	-1
evnka101_1passive	16	deviant	21727	-1	-1
evnka101_1passive	17	standard	22871	-1	-1
evnka101_1passive	18	standard	23984	-1	-1
evnka101_1passive	19	standard	25231	-1	-1
evnka101_1passive	20	standard	26466	-1	-1
evnka101_1passive	21	standard	27560	-1	-1
evnka101_1passive	22	standard	28636	-1	-1
evnka101_1passive	23	standard	29908	-1	-1
evnka101_1passive	24	standard	31090	-1	-1
evnka101_1passive	25	deviant	32209	-1	-1
evnka101_1passive	26	standard	33361	-1	-1
evnka101_1passive	27	standard	34490	-1	-1
evnka101_1passive	28	standard	35719	-1	-1
evnka101_1passive	29	standard	36883	-1	-1
evnka101_1passive	30	standard	38058	-1	-1
evnka101_1passive	31	standard	39170	-1	-1
evnka101_1passive	32	standard	40254	-1	-1
evnka101_1passive	33	standard	41414	-1	-1
evnka101_1passive	34	standard	42560	-1	-1
evnka101_1passive	35	standard	43740	-1	-1
evnka101_1passive	36	deviant	44999	-1	-1
evnka101_1passive	37	standard	46098	-1	-1
evnka101_1passive	38	standard	47225	-1	-1
evnka101_1passive	39	deviant	48312	-1	-1
evnka101_1passive	40	standard	49435	-1	-1
evnka101_1passive	41	standard	50703	-1	-1
evnka101_1passive	42	standard	51868	-1	-1
evnka101_1passive	43	standard	53063	-1	-1
evnka101_1passive	44	standard	54297	-1	-1
evnka101_1passive	45	standard	55416	-1	-1
evnka101_1passive	46	standard	56678	-1	-1
evnka101_1passive	47	standard	57866	-1	-1
evnka101_1passive	48	standard	59120	-1	-1
evnka101_1passive	49	standard	60308	-1	-1
evnka101_1passive	50	standard	61428	-1	-1
evnka101_1passive	51	standard	62606	-1	-1
evnka101_1passive	52	standard	63850	-1	-1
evnka101_1passive	53	standard	65000	-1	-1
evnka101_1passive	54	standard	66121	-1	-1
evnka101_1passive	55	standard	67231	-1	-1
evnka101_1passive	56	standard	68502	-1	-1
evnka101_1passive	57	deviant	69614	-1	-1
evnka101_1passive	58	standard	70708	-1	-1
evnka101_1passive	59	standard	71917	-1	-1
evnka101_1passive	60	standard	73106	-1	-1
evnka101_1passive	61	standard	74252	-1	-1
evnka101_1passive	62	standard	75400	-1	-1
evnka101_1passive	63	deviant	76527	-1	-1
evnka101_1passive	64	standard	77797	-1	-1
evnka101_1passive	65	standard	79052	-1	-1
evnka101_1passive	66	standard	80261	-1	-1
evnka101_1passive	67	standard	81436	-1	-1
evnka101_1passive	68	standard	82657	-1	-1
evnka101_1passive	69	standard	83830	-1	-1
evnka101_1passive	70	standard	84969	-1	-1
evnka101_1passive	71	standard	86191	-1	-1
evnka101_1passive	72	standard	87312	-1	-1
evnka101_1passive	73	standard	88509	-1	-1
evnka101_1passive	74	standard	89720	-1	-1
evnka101_1passive	75	standard	90934	-1	-1
evnka101_1passive	76	standard	92079	-1	-1
evnka101_1passive	77	standard	93262	-1	-1
evnka101_1passive	78	deviant	94510	-1	-1
evnka101_1passive	79	standard	95727	-1	-1
evnka101_1passive	80	standard	96939	-1	-1
evnka101_1passive	81	standard	98031	-1	-1
evnka101_1passive	82	standard	99301	-1	-1
evnka101_1passive	83	standard	100528	-1	-1
evnka101_1passive	84	standard	101705	-1	-1
evnka101_1passive	85	deviant	102803	-1	-1
evnka101_1passive	86	standard	103937	-1	-1
evnka101_1passive	87	standard	105154	-1	-1
evnka101_1passive	88	standard	106233	-1	-1
evnka101_1passive	89	deviant	107327	-1	-1
evnka101_1passive	90	standard	108427	-1	-1
evnka101_1passive	91	standard	109529	-1	-1
evnka101_1passive	92	standard	110687	-1	-1
evnka101_1passive	93	standard	111828	-1	-1
evnka101_1passive	94	standard	113036	-1	-1
evnka101_1passive	95	standard	114120	-1	-1
evnka101_1passive	96	standard	115343	-1	-1
evnka101_1passive	97	standard	116451	-1	-1
evnka101_1passive	98	standard	117665	-1	-1
evnka101_1passive	99	standard	118830	-1	-1
evnka101_1passive	100	standard	119957	-1	-1
evnka101_1passive	101	standard	121130	-1	-1
evnka101_1passive	102	standard	122343	-1	-1
evnka101_1passive	103	standard	123490	-1	-1
evnka101_1passive	104	deviant	124749	-1	-1
evnka101_1passive	105	standard	126013	-1	-1
evnka101_1passive	106	standard	127131	-1	-1
evnka101_1passive	107	standard	128371	-1	-1
evnka101_1passive	108	standard	129521	-1	-1
evnka101_1passive	109	standard	130637	-1	-1
evnka101_1passive	110	standard	131723	-1	-1
evnka101_1passive	111	standard	132822	-1	-1
evnka101_1passive	112	standard	133997	-1	-1
evnka101_1passive	113	standard	135106	-1	-1
evnka101_1passive	114	standard	136312	-1	-1
evnka101_1passive	115	deviant	137427	-1	-1
evnka101_1passive	116	standard	138548	-1	-1
evnka101_1passive	117	standard	139687	-1	-1
evnka101_1passive	118	standard	140857	-1	-1
evnka101_1passive	119	standard	141947	-1	-1
evnka101_1passive	120	standard	143045	-1	-1
evnka101_1passive	121	standard	144272	-1	-1
evnka101_1passive	122	standard	145371	-1	-1
evnka101_1passive	123	standard	146470	-1	-1
evnka101_1passive	124	deviant	147583	-1	-1
evnka101_1passive	125	standard	148834	-1	-1
evnka101_1passive	126	standard	150006	-1	-1
evnka101_1passive	127	standard	151245	-1	-1
evnka101_1passive	128	standard	152355	-1	-1
evnka101_1passive	129	standard	153491	-1	-1
evnka101_1passive	130	standard	154693	-1	-1
evnka101_1passive	131	standard	155881	-1	-1
evnka101_1passive	132	standard	157062	-1	-1
evnka101_1passive	133	standard	158182	-1	-1
evnka101_1passive	134	standard	159330	-1	-1
evnka101_1passive	135	standard	160545	-1	-1
evnka101_1passive	136	deviant	161745	-1	-1
evnka101_1passive	137	standard	162828	-1	-1
evnka101_1passive	138	standard	164013	-1	-1
evnka101_1passive	139	deviant	165149	-1	-1
evnka101_1passive	140	standard	166398	-1	-1
evnka101_1passive	141	standard	167477	-1	-1
evnka101_1passive	142	standard	168662	-1	-1
evnka101_1passive	143	standard	169914	-1	-1
evnka101_1passive	144	standard	171113	-1	-1
evnka101_1passive	145	deviant	172364	-1	-1
evnka101_1passive	146	standard	173618	-1	-1
evnka101_1passive	147	standard	174817	-1	-1
evnka101_1passive	148	standard	176026	-1	-1
evnka101_1passive	149	standard	177180	-1	-1
evnka101_1passive	150	standard	178422	-1	-1
evnka101_1passive	151	standard	179678	-1	-1
evnka101_1passive	152	standard	180886	-1	-1
evnka101_1passive	153	standard	182133	-1	-1
evnka101_1passive	154	standard	183256	-1	-1
evnka101_1passive	155	standard	184443	-1	-1
evnka101_1passive	156	standard	185649	-1	-1
evnka101_1passive	157	standard	186854	-1	-1
evnka101_1passive	158	deviant	188126	-1	-1
evnka101_1passive	159	standard	189230	-1	-1
evnka101_1passive	160	standard	190457	-1	-1
evnka101_1passive	161	standard	191559	-1	-1
evnka101_1passive	162	deviant	192746	-1	-1
evnka101_1passive	163	standard	193997	-1	-1
evnka101_1passive	164	standard	195076	-1	-1
evnka101_1passive	165	standard	196315	-1	-1
evnka101_1passive	166	deviant	197573	-1	-1
evnka101_1passive	167	standard	198760	-1	-1
evnka101_1passive	168	standard	199966	-1	-1
evnka101_1passive	169	standard	201179	-1	-1
evnka101_1passive	170	deviant	202426	-1	-1
evnka101_1passive	171	standard	203602	-1	-1
evnka101_1passive	172	standard	204681	-1	-1
evnka101_1passive	173	standard	205944	-1	-1
evnka101_1passive	174	standard	207096	-1	-1
evnka101_1passive	175	standard	208283	-1	-1
evnka101_1passive	176	standard	209414	-1	-1
evnka101_1passive	177	standard	210632	-1	-1
evnka101_1passive	178	standard	211791	-1	-1
evnka101_1passive	179	deviant	212988	-1	-1
evnka101_1passive	180	standard	214081	-1	-1
evnka101_1passive	181	standard	215329	-1	-1
evnka101_1passive	182	standard	216559	-1	-1
evnka101_1passive	183	deviant	217787	-1	-1
evnka101_1passive	184	standard	219021	-1	-1
evnka101_1passive	185	standard	220271	-1	-1
evnka101_1passive	186	standard	221406	-1	-1
evnka101_1passive	187	standard	222523	-1	-1
evnka101_1passive	188	deviant	223692	-1	-1
evnka101_1passive	189	standard	224840	-1	-1
evnka101_1passive	190	standard	226030	-1	-1
evnka101_1passive	191	standard	227237	-1	-1
evnka101_1passive	192	standard	228403	-1	-1
evnka101_1passive	193	standard	229493	-1	-1
evnka101_1passive	194	standard	230634	-1	-1
evnka101_1passive	195	standard	231791	-1	-1
evnka101_1passive	196	standard	233009	-1	-1
evnka101_1passive	197	standard	234193	-1	-1
evnka101_1passive	198	standard	235458	-1	-1
evnka101_1passive	199	standard	236622	-1	-1
evnka101_1passive	200	standard	237743	-1	-1
evnka101_1passive	201	standard	238895	-1	-1
evnka101_1passive	202	deviant	240162	-1	-1
evnka101_1passive	203	standard	241312	-1	-1
evnka101_1passive	204	standard	242488	-1	-1
evnka101_1passive	205	standard	243627	-1	-1
evnka101_1passive	206	standard	244731	-1	-1
evnka101_1passive	207	standard	245857	-1	-1
evnka101_1passive	208	standard	247125	-1	-1
evnka101_1passive	209	deviant	248266	-1	-1
evnka101_1passive	210	standard	249403	-1	-1
evnka101_1passive	211	standard	250631	-1	-1
evnka101_1passive	212	standard	251843	-1	-1
evnka101_1passive	213	standard	252973	-1	-1
evnka101_1passive	214	standard	254123	-1	-1
evnka101_1passive	215	standard	255242	-1	-1
evnka101_1passive	216	standard	256349	-1	-1
evnka101_1passive	217	standard	257459	-1	-1
evnka101_1passive	218	standard	258568	-1	-1
evnka101_1passive	219	deviant	259777	-1	-1
evnka101_1passive	220	standard	260882	-1	-1
evnka101_1passive	221	standard	262092	-1	-1
evnka101_1passive	222	standard	263338	-1	-1
evnka101_1passive	223	deviant	264598	-1	-1
evnka101_1passive	224	standard	265722	-1	-1
evnka101_1passive	225	standard	266992	-1	-1
evnka101_1passive	226	standard	268157	-1	-1
evnka101_1passive	227	standard	269293	-1	-1
evnka101_1passive	228	standard	270523	-1	-1
evnka101_1passive	229	deviant	271651	-1	-1
evnka101_1passive	230	standard	272768	-1	-1
evnka101_1passive	231	standard	273986	-1	-1
evnka101_1passive	232	standard	275211	-1	-1
evnka101_1passive	233	standard	276352	-1	-1
evnka101_1passive	234	standard	277473	-1	-1
evnka101_1passive	235	standard	278713	-1	-1
evnka101_1passive	236	standard	279826	-1	-1
evnka101_1passive	237	deviant	281082	-1	-1
evnka101_1passive	238	standard	282254	-1	-1
evnka101_1passive	239	standard	283355	-1	-1
evnka101_1passive	240	standard	284476	-1	-1
evnka101_1passive	241	standard	285580	-1	-1
evnka101_1passive	242	standard	286779	-1	-1
evnka101_1passive	243	standard	287921	-1	-1
evnka101_1passive	244	deviant	289131	-1	-1
evnka101_1passive	245	standard	290362	-1	-1
evnka101_1passive	246	standard	291567	-1	-1
evnka101_1passive	247	standard	292731	-1	-1
evnka101_1passive	248	standard	294002	-1	-1
evnka101_1passive	249	standard	295121	-1	-1
evnka101_1passive	250	standard	296297	-1	-1
evnka101_1passive	251	standard	297469	-1	-1
evnka101_1passive	252	deviant	298668	-1	-1
evnka101_1passive	253	standard	299856	-1	-1
evnka101_1passive	254	standard	301074	-1	-1
evnka101_1passive	255	deviant	302177	-1	-1
evnka101_1passive	256	standard	303439	-1	-1
evnka101_1passive	257	standard	304623	-1	-1
evnka101_1passive	258	standard	305865	-1	-1
evnka101_1passive	259	standard	307017	-1	-1
evnka101_1passive	260	deviant	308118	-1	-1
evnka101_1passive	261	standard	309214	-1	-1
evnka101_1passive	262	standard	310462	-1	-1
evnka101_1passive	263	standard	311655	-1	-1
evnka101_1passive	264	deviant	312843	-1	-1
evnka101_1passive	265	standard	313960	-1	-1
evnka101_1passive	266	standard	315163	-1	-1
evnka101_1passive	267	standard	316272	-1	-1
evnka101_1passive	268	deviant	317426	-1	-1
evnka101_1passive	269	standard	318586	-1	-1
evnka101_1passive	270	standard	319669	-1	-1
evnka101_1passive	271	standard	320818	-1	-1
evnka101_1passive	272	deviant	321914	-1	-1
evnka101_1passive	273	standard	323039	-1	-1
evnka101_1passive	274	standard	324118	-1	-1
evnka101_1passive	275	standard	325266	-1	-1
evnka101_1passive	276	standard	326474	-1	-1
evnka101_1passive	277	standard	327737	-1	-1
evnka101_1passive	278	standard	329003	-1	-1
evnka101_1passive	279	standard	330096	-1	-1
evnka101_1passive	280	deviant	331223	-1	-1
evnka101_1passive	281	standard	332394	-1	-1
evnka101_1passive	282	standard	333503	-1	-1
evnka101_1passive	283	standard	334770	-1	-1
evnka101_1passive	284	standard	335878	-1	-1
evnka101_1passive	285	deviant	337127	-1	-1
evnka101_1passive	286	standard	338361	-1	-1
evnka101_1passive	287	standard	339630	-1	-1
evnka101_1passive	288	standard	340793	-1	-1
evnka101_1passive	289	standard	342059	-1	-1
evnka101_1passive	290	deviant	343277	-1	-1
evnka101_1passive	291	standard	344407	-1	-1
evnka101_1passive	292	standard	345638	-1	-1
evnka101_1passive	293	deviant	346865	-1	-1
evnka101_1passive	294	standard	348135	-1	-1
evnka101_1passive	295	standard	349227	-1	-1
evnka101_1passive	296	deviant	350382	-1	-1
evnka101_1passive	297	standard	351656	-1	-1
evnka101_1passive	298	standard	352776	-1	-1
evnka101_1passive	299	deviant	353981	-1	-1
evnka101_1passive	300	standard	355090	-1	-1
evnka101_1passive	301	standard	356350	-1	-1
evnka101_1passive	302	standard	357496	-1	-1
evnka101_1passive	303	standard	358579	-1	-1
evnka101_1passive	304	standard	359662	-1	-1
evnka101_1passive	305	standard	360765	-1	-1
evnka101_1passive	306	deviant	361890	-1	-1
evnka101_1passive	307	standard	363057	-1	-1
evnka101_1passive	308	standard	364141	-1	-1
evnka101_1passive	309	standard	365287	-1	-1
evnka101_1passive	310	standard	366516	-1	-1
evnka101_1passive	311	standard	367647	-1	-1
evnka101_1passive	312	standard	368858	-1	-1
evnka101_1passive	313	deviant	370133	-1	-1
evnka101_1passive	314	standard	371318	-1	-1
evnka101_1passive	315	standard	372450	-1	-1
evnka101_1passive	316	standard	373557	-1	-1
evnka101_1passive	317	standard	374727	-1	-1
evnka101_1passive	318	deviant	375914	-1	-1
evnka101_1passive	319	standard	376993	-1	-1
evnka101_1passive	320	standard	378259	-1	-1
evnka101_1passive	321	deviant	379511	-1	-1
evnka101_1passive	322	standard	380602	-1	-1
evnka101_1passive	323	standard	381867	-1	-1
evnka101_1passive	324	deviant	382947	-1	-1
evnka101_1passive	325	standard	384058	-1	-1
evnka101_1passive	326	standard	385280	-1	-1
evnka101_1passive	327	deviant	386496	-1	-1
evnka101_1passive	328	standard	387717	-1	-1
evnka101_1passive	329	standard	388852	-1	-1
evnka101_1passive	330	standard	389962	-1	-1
evnka101_1passive	331	standard	391089	-1	-1
evnka101_1passive	332	standard	392304	-1	-1
evnka101_1passive	333	deviant	393422	-1	-1
evnka101_1passive	334	standard	394676	-1	-1
evnka101_1passive	335	standard	395915	-1	-1
evnka101_1passive	336	standard	397167	-1	-1
evnka101_1passive	337	standard	398425	-1	-1
evnka101_1passive	338	standard	399570	-1	-1
evnka101_1passive	339	standard	400718	-1	-1
evnka101_1passive	340	deviant	401888	-1	-1
evnka101_1passive	341	standard	403057	-1	-1
evnka101_1passive	342	standard	404318	-1	-1
evnka101_1passive	343	standard	405510	-1	-1
evnka101_1passive	344	deviant	406686	-1	-1
evnka101_1passive	345	standard	407761	-1	-1
evnka101_1passive	346	standard	408898	-1	-1
evnka101_1passive	347	standard	409992	-1	-1
evnka101_1passive	348	standard	411118	-1	-1
evnka101_1passive	349	standard	412298	-1	-1
evnka101_1passive	350	standard	413505	-1	-1
evnka101_1passive	351	standard	414684	-1	-1
evnka101_1passive	352	standard	415876	-1	-1
evnka101_1passive	353	deviant	417063	-1	-1
evnka101_1passive	354	standard	418289	-1	-1
evnka101_1passive	355	standard	419471	-1	-1
evnka101_1passive	356	deviant	420608	-1	-1
evnka101_1passive	357	standard	421760	-1	-1
evnka101_1passive	358	standard	423033	-1	-1
evnka101_1passive	359	standard	424305	-1	-1
evnka101_1passive	360	standard	425517	-1	-1
evnka101_1passive	361	standard	426614	-1	-1
evnka101_1passive	362	standard	427763	-1	-1
evnka101_1passive	363	standard	428912	-1	-1
evnka101_1passive	364	standard	430123	-1	-1
evnka101_1passive	365	deviant	431319	-1	-1
evnka101_1passive	366	standard	432590	-1	-1
evnka101_1passive	367	standard	433853	-1	-1
evnka101_1passive	368	standard	434944	-1	-1
evnka101_1passive	369	standard	436175	-1	-1
evnka101_1passive	370	standard	437253	-1	-1
evnka101_1passive	371	deviant	438458	-1	-1
evnka101_1passive	372	standard	439629	-1	-1
evnka101_1passive	373	standard	440828	-1	-1
evnka101_1passive	374	standard	442045	-1	-1
evnka101_1passive	375	standard	443316	-1	-1
evnka101_1passive	376	standard	444558	-1	-1
evnka101_1passive	377	standard	445702	-1	-1
evnka101_1passive	378	standard	446932	-1	-1
evnka101_1passive	379	standard	448060	-1	-1
evnka101_1passive	380	standard	449258	-1	-1
evnka101_1passive	381	standard	450478	-1	-1
evnka101_1passive	382	standard	451662	-1	-1
evnka101_1passive	383	deviant	452870	-1	-1
evnka101_1passive	384	standard	454136	-1	-1
evnka101_1passive	385	standard	455348	-1	-1
evnka101_1passive	386	standard	456580	-1	-1
evnka101_1passive	387	standard	457720	-1	-1
evnka101_1passive	388	standard	458986	-1	-1
evnka101_1passive	389	standard	460163	-1	-1
evnka101_1passive	390	deviant	461345	-1	-1
evnka101_1passive	391	standard	462554	-1	-1
evnka101_1passive	392	standard	463781	-1	-1
evnka101_1passive	393	standard	465054	-1	-1
evnka101_1passive	394	standard	466308	-1	-1
evnka101_1passive	395	standard	467575	-1	-1
evnka101_1passive	396	standard	468782	-1	-1
evnka101_1passive	397	standard	470002	-1	-1
evnka101_1passive	398	standard	471121	-1	-1
evnka101_1passive	399	deviant	472307	-1	-1
evnka101_1passive	400	standard	473575	-1	-1
evnka101_1passive	401	standard	474722	-1	-1
evnka101_1passive	402	standard	475825	-1	-1
evnka101_1passive	403	standard	477011	-1	-1
evnka101_1passive	404	standard	478223	-1	-1
evnka101_1passive	405	standard	479496	-1	-1
evnka101_1passive	406	standard	480707	-1	-1
evnka101_1passive	407	standard	481945	-1	-1
evnka101_1passive	408	standard	483080	-1	-1
evnka101_1passive	409	standard	484181	-1	-1
evnka101_1passive	410	standard	485419	-1	-1
evnka101_1passive	411	standard	486589	-1	-1
evnka101_1passive	412	deviant	487745	-1	-1
evnka101_1passive	413	standard	488875	-1	-1
evnka101_1passive	414	standard	490018	-1	-1
evnka101_1passive	415	standard	491199	-1	-1
evnka101_1passive	416	standard	492335	-1	-1
evnka101_1passive	417	standard	493568	-1	-1
evnka101_1passive	418	standard	494683	-1	-1
evnka101_1passive	419	standard	495941	-1	-1
evnka101_1passive	420	standard	497153	-1	-1
evnka101_1passive	421	standard	498265	-1	-1
evnka101_1passive	422	standard	499527	-1	-1
evnka101_1passive	423	deviant	500738	-1	-1
evnka101_1passive	424	standard	501867	-1	-1
evnka101_1passive	425	standard	502997	-1	-1
evnka101_1passive	426	standard	504225	-1	-1
evnka101_1passive	427	deviant	505310	-1	-1
evnka101_1passive	428	standard	506436	-1	-1
evnka101_1passive	429	standard	507572	-1	-1
evnka101_1passive	430	standard	508765	-1	-1
evnka101_1passive	431	deviant	509929	-1	-1
evnka101_1passive	432	standard	511196	-1	-1
evnka101_1passive	433	standard	512407	-1	-1
evnka101_1passive	434	standard	513591	-1	-1
evnka101_1passive	435	standard	514836	-1	-1
evnka101_1passive	436	standard	516003	-1	-1
evnka101_1passive	437	deviant	517124	-1	-1
evnka101_1passive	438	standard	518356	-1	-1
evnka101_1passive	439	standard	519495	-1	-1
evnka101_1passive	440	standard	520657	-1	-1
evnka101_1passive	441	deviant	521929	-1	-1
evnka101_1passive	442	standard	523029	-1	-1
evnka101_1passive	443	standard	524163	-1	-1
evnka101_1passive	444	standard	525418	-1	-1
evnka101_1passive	445	standard	526583	-1	-1
evnka101_1passive	446	deviant	527820	-1	-1
evnka101_1passive	447	standard	529072	-1	-1
evnka101_1passive	448	standard	530174	-1	-1
evnka101_1passive	449	standard	531336	-1	-1
evnka101_1passive	450	standard	532445	-1	-1
evnka101_1passive	451	deviant	533521	-1	-1
evnka101_1passive	452	standard	534672	-1	-1
evnka101_1passive	453	standard	535909	-1	-1
evnka101_1passive	454	standard	537080	-1	-1
evnka101_1passive	455	standard	538298	-1	-1
evnka101_1passive	456	standard	539495	-1	-1
evnka101_1passive	457	standard	540645	-1	-1
evnka101_1passive	458	deviant	541809	-1	-1
evnka101_1passive	459	standard	543007	-1	-1
evnka101_1passive	460	standard	544184	-1	-1
evnka101_1passive	461	standard	545299	-1	-1
evnka101_1passive	462	standard	546476	-1	-1
evnka101_1passive	463	deviant	547739	-1	-1
evnka101_1passive	464	standard	548924	-1	-1
evnka101_1passive	465	standard	550037	-1	-1
evnka101_1passive	466	standard	551267	-1	-1
evnka101_1passive	467	standard	552540	-1	-1
evnka101_1passive	468	standard	553785	-1	-1
evnka101_1passive	469	deviant	554990	-1	-1
evnka101_1passive	470	standard	556188	-1	-1
evnka101_1passive	471	standard	557463	-1	-1
evnka101_1passive	472	standard	558607	-1	-1
evnka101_1passive	473	standard	559874	-1	-1
evnka101_1passive	474	standard	561101	-1	-1
evnka101_1passive	475	deviant	562249	-1	-1
evnka101_1passive	476	standard	563415	-1	-1
evnka101_1passive	477	standard	564509	-1	-1
evnka101_1passive	478	standard	565654	-1	-1
evnka101_1passive	479	standard	566739	-1	-1
evnka101_1passive	480	standard	567952	-1	-1
evnka101_1passive	481	deviant	569167	-1	-1
evnka101_1passive	482	standard	570284	-1	-1
evnka101_1passive	483	standard	571521	-1	-1
evnka101_1passive	484	standard	572698	-1	-1
evnka101_1passive	485	standard	573806	-1	-1
evnka101_1passive	486	standard	574916	-1	-1
evnka101_1passive	487	deviant	576084	-1	-1
evnka101_1passive	488	standard	577217	-1	-1
evnka101_1passive	489	standard	578353	-1	-1
evnka101_1passive	490	standard	579502	-1	-1
evnka101_1passive	491	standard	580588	-1	-1
evnka101_1passive	492	standard	581800	-1	-1
evnka101_1passive	493	standard	582918	-1	-1
evnka101_1passive	494	standard	584086	-1	-1
evnka101_1passive	495	standard	585298	-1	-1
evnka101_1passive	496	deviant	586439	-1	-1
evnka101_1passive	497	standard	587697	-1	-1
evnka101_1passive	498	standard	588952	-1	-1
evnka101_1passive	499	standard	590045	-1	-1
evnka101_1passive	500	deviant	591122	-1	-1
evnka101_1passive	501	standard	592241	-1	-1
evnka101_1passive	502	standard	593436	-1	-1
evnka101_1passive	503	standard	594542	-1	-1
evnka101_1passive	504	standard	595625	-1	-1
evnka101_1passive	505	deviant	596890	-1	-1
evnka101_1passive	506	standard	598114	-1	-1
evnka101_1passive	507	standard	599350	-1	-1
evnka101_1passive	508	standard	600476	-1	-1
evnka101_1passive	509	standard	601617	-1	-1
evnka101_1passive	510	standard	602812	-1	-1
evnka101_1passive	511	standard	604024	-1	-1
evnka101_1passive	512	standard	605166	-1	-1
evnka101_1passive	513	deviant	606373	-1	-1
evnka101_1passive	514	standard	607568	-1	-1
evnka101_1passive	515	standard	608679	-1	-1
evnka101_1passive	516	standard	609944	-1	-1
evnka101_1passive	517	standard	611174	-1	-1
evnka101_1passive	518	deviant	612417	-1	-1
evnka101_1passive	519	standard	613522	-1	-1
evnka101_1passive	520	standard	614605	-1	-1
evnka101_1passive	521	deviant	615769	-1	-1
evnka101_1passive	522	standard	616951	-1	-1
evnka101_1passive	523	standard	618224	-1	-1
evnka101_1passive	524	standard	619314	-1	-1
evnka101_1passive	525	standard	620459	-1	-1
evnka101_1passive	526	standard	621547	-1	-1
evnka101_1passive	527	standard	622767	-1	-1
evnka101_1passive	528	standard	624013	-1	-1
evnka101_1passive	529	standard	625122	-1	-1
evnka101_1passive	530	deviant	626346	-1	-1
evnka101_1passive	531	standard	627546	-1	-1
evnka101_1passive	532	standard	628667	-1	-1
evnka101_1passive	533	standard	629806	-1	-1
evnka101_1passive	534	deviant	630937	-1	-1
evnka101_1passive	535	standard	632173	-1	-1
evnka101_1passive	536	standard	633346	-1	-1
evnka101_1passive	537	deviant	634479	-1	-1
evnka101_1passive	538	standard	635619	-1	-1
evnka101_1passive	539	standard	636854	-1	-1
evnka101_1passive	540	deviant	637984	-1	-1
evnka101_1passive	541	standard	639244	-1	-1
evnka101_1passive	542	standard	640505	-1	-1
evnka101_1passive	543	standard	641592	-1	-1
evnka101_1passive	544	standard	642836	-1	-1
evnka101_1passive	545	standard	644064	-1	-1
evnka101_1passive	546	standard	645339	-1	-1
evnka101_1passive	547	standard	646449	-1	-1
evnka101_1passive	548	standard	647719	-1	-1
evnka101_1passive	549	deviant	648973	-1	-1
evnka101_1passive	550	standard	650195	-1	-1
evnka101_1passive	551	standard	651394	-1	-1
evnka101_1passive	552	standard	652474	-1	-1
evnka101_1passive	553	standard	653572	-1	-1
evnka101_1passive	554	deviant	654711	-1	-1
evnka101_1passive	555	standard	655823	-1	-1
evnka101_1passive	556	standard	656997	-1	-1
evnka101_1passive	557	deviant	658222	-1	-1
evnka101_1passive	558	standard	659309	-1	-1
evnka101_1passive	559	standard	660564	-1	-1
evnka101_1passive	560	standard	661700	-1	-1
evnka101_1passive	561	deviant	662820	-1	-1
evnka101_1passive	562	standard	663962	-1	-1
evnka101_1passive	563	standard	665075	-1	-1
evnka101_1passive	564	standard	666238	-1	-1
evnka101_1passive	565	standard	667344	-1	-1
evnka101_1passive	566	standard	668428	-1	-1
evnka101_1passive	567	standard	669518	-1	-1
evnka101_1passive	568	standard	670700	-1	-1
evnka101_1passive	569	deviant	671840	-1	-1
evnka101_1passive	570	standard	672966	-1	-1
evnka101_1passive	571	standard	674202	-1	-1
evnka101_1passive	572	standard	675329	-1	-1
evnka101_1passive	573	standard	676576	-1	-1
evnka101_1passive	574	standard	677671	-1	-1
evnka101_1passive	575	standard	678824	-1	-1
evnka101_1passive	576	standard	679953	-1	-1
evnka101_1passive	577	standard	681154	-1	-1
evnka101_1passive	578	standard	682382	-1	-1
evnka101_1passive	579	deviant	683552	-1	-1
evnka101_1passive	580	standard	684747	-1	-1
evnka101_1passive	581	standard	685986	-1	-1
evnka101_1passive	582	deviant	687066	-1	-1
evnka101_1passive	583	standard	688177	-1	-1
evnka101_1passive	584	standard	689419	-1	-1
evnka101_1passive	585	standard	690557	-1	-1
evnka101_1passive	586	standard	691653	-1	-1
evnka101_1passive	587	standard	692753	-1	-1
evnka101_1passive	588	standard	693926	-1	-1
evnka101_1passive	589	standard	695008	-1	-1
evnka101_1passive	590	standard	696166	-1	-1
evnka101_1passive	591	standard	697376	-1	-1
evnka101_1passive	592	standard	698459	-1	-1
evnka101_1passive	593	standard	699550	-1	-1
evnka101_1passive	594	standard	700817	-1	-1
evnka101_1passive	595	standard	701896	-1	-1
evnka101_1passive	596	standard	703167	-1	-1
evnka101_1passive	597	standard	704343	-1	-1
evnka101_1passive	598	standard	705553	-1	-1
evnka101_1passive	599	deviant	706753	-1	-1
evnka101_1passive	600	standard	708002	-1	-1
evnka101_1passive	601	standard	709128	-1	-1
evnka101_1passive	602	deviant	710299	-1	-1
evnka101_1passive	603	standard	711525	-1	-1
evnka101_1passive	604	standard	712646	-1	-1
evnka101_1passive	605	standard	713903	-1	-1
evnka101_1passive	606	standard	714995	-1	-1
evnka101_1passive	607	standard	716254	-1	-1
evnka101_1passive	608	deviant	717432	-1	-1
evnka101_1passive	609	standard	718526	-1	-1
evnka101_1passive	610	standard	719764	-1	-1
evnka101_1passive	611	standard	720939	-1	-1
evnka101_1passive	612	standard	722198	-1	-1
evnka101_1passive	613	standard	723428	-1	-1
evnka101_1passive	614	standard	724651	-1	-1
evnka101_1passive	615	standard	725898	-1	-1
evnka101_1passive	616	standard	727139	-1	-1
evnka101_1passive	617	standard	728241	-1	-1
evnka101_1passive	618	standard	729386	-1	-1
evnka101_1passive	619	standard	730520	-1	-1
evnka101_1passive	620	deviant	731746	-1	-1
evnka101_1passive	621	standard	732963	-1	-1
evnka101_1passive	622	standard	734113	-1	-1
evnka101_1passive	623	standard	735194	-1	-1
evnka101_1passive	624	standard	736369	-1	-1
evnka101_1passive	625	standard	737455	-1	-1
evnka101_1passive	626	standard	738681	-1	-1
evnka101_1passive	627	standard	739833	-1	-1
evnka101_1passive	628	standard	741056	-1	-1
evnka101_1passive	629	standard	742239	-1	-1
evnka101_1passive	630	standard	743407	-1	-1
evnka101_1passive	631	standard	744519	-1	-1
evnka101_1passive	632	standard	745702	-1	-1
evnka101_1passive	633	standard	746949	-1	-1
evnka101_1passive	634	standard	748089	-1	-1
evnka101_1passive	635	standard	749238	-1	-1
evnka101_1passive	636	standard	750380	-1	-1
evnka101_1passive	637	standard	751457	-1	-1
evnka101_1passive	638	standard	752711	-1	-1
evnka101_1passive	639	deviant	753969	-1	-1
evnka101_1passive	640	standard	755046	-1	-1
evnka101_1passive	641	standard	756253	-1	-1
evnka101_1passive	642	deviant	757496	-1	-1
evnka101_1passive	643	standard	758740	-1	-1
evnka101_1passive	644	standard	759822	-1	-1
evnka101_1passive	645	standard	760941	-1	-1
evnka101_1passive	646	standard	762121	-1	-1
evnka101_1passive	647	deviant	763376	-1	-1
evnka101_1passive	648	standard	764468	-1	-1
evnka101_1passive	649	standard	765585	-1	-1
evnka101_1passive	650	standard	766795	-1	-1
evnka101_1passive	651	standard	767888	-1	-1
evnka101_1passive	652	standard	769016	-1	-1
evnka101_1passive	653	standard	770147	-1	-1
evnka101_1passive	654	deviant	771407	-1	-1
evnka101_1passive	655	standard	772541	-1	-1
evnka101_1passive	656	standard	773800	-1	-1
evnka101_1passive	657	standard	774928	-1	-1
evnka101_1passive	658	deviant	776062	-1	-1
evnka101_1passive	659	standard	777254	-1	-1
evnka101_1passive	660	standard	778342	-1	-1
evnka101_1passive	661	standard	779549	-1	-1
evnka101_1passive	662	standard	780755	-1	-1
evnka101_1passive	663	standard	781869	-1	-1
evnka101_1passive	664	deviant	782993	-1	-1
evnka101_1passive	665	standard	784092	-1	-1
evnka101_1passive	666	standard	785239	-1	-1
